Titanium Oxide (TiO)	O1Ti1(l)
T(K)	Cp	S	-[G-H(Tr)]/T	H-H(Tr)	delta-f H	delta-f G	log Kf
0														
100														
200														
298.15	39.957	60.140	60.140	0.000	-493.939	-472.116	82.713
300	40.062	60.387	60.140	0.074	-493.938	-471.981	82.179
400	44.978	72.644	61.778	4.346	-493.765	-464.679	60.681
500	48.242	83.049	65.018	9.015	-493.366	-457.450	47.790
600	50.836	92.079	68.792	13.972	-492.814	-450.317	39.204
700	53.095	100.089	72.702	19.171	-492.131	-443.286	33.078
800	55.187	107.317	76.584	24.586	-491.309	-436.363	28.492
900	57.153	113.931	80.371	30.204	-490.385	-429.549	24.930
1000	59.078	120.053	84.037	36.016	-489.425	-422.841	22.087
1100	60.961	125.772	87.574	42.018	-488.493	-416.229	19.765
1200	62.802	131.156	90.984	48.206	-491.573	-409.579	17.829
1200.000	62.802	131.156	90.984	48.206	GLASS <--> LIQUID
1200.000	66.944	131.156	90.984	48.206	TRANSITION
1300	66.944	136.514	94.283	54.901	-489.651	-402.825	16.186
1400	66.944	141.475	97.479	61.595	-487.822	-396.215	14.783
1500	66.944	146.094	100.567	68.290	-486.098	-389.733	13.572
1600	66.944	150.414	103.549	74.984	-484.492	-383.361	12.515
1700	66.944	154.473	106.427	81.678	-483.016	-377.086	11.586
1800	66.944	158.299	109.203	88.373	-481.684	-370.895	10.763
1900	66.944	161.919	111.883	95.067	-480.507	-364.772	10.028
2000	66.944	165.352	114.472	101.762	-494.186	-358.254	9.357
2023.000	66.944	166.118	115.054	103.301	BETA <--> LIQUID
2100	66.944	168.619	116.973	108.456	494.108  351.460 8.742
2200	66.944	171.733	119.392	115.150	-494.041	-344.668	8.183
2300	66.944	174.709	121.733	121.845	-493.986	-337.880	7.673
2400	66.944	177.558	124.000	128.539	-493.942	-331.094	7.206
2500	66.944	180.291	126.197	135.234	-493.909	-324.309	6.776
2600	66.944	182.916	128.328	141.928	-493.886	-317.526	6.379
2700	66.944	185.443	130.397	148.622	-493.874	-310.743	6.012
2800	66.944	187.877	132.407	155.317	-493.872	-303.960	5.670
2900	66.944	190.226	134.360	162.011	-493.880	-297.178	5.353
3000	66.944	192.496	136.261	168.706	-493.898	-290.395	5.056
3100	66.944	194.691	138.110	175.400	-493.925	-283.611	4.779
3200	66.944	196.816	139.912	182.094	-493.962	-276.826	4.519
3300	66.944	198.876	141.668	188.789	-494.006	-270.040	4.274
3400	66.944	200.875	143.380	195.483	-494.060	-263.252	4.044
3500	66.944	202.815	145.050	202.178	-494.121	-256.463	3.828
3600	66.944	204.701	146.681	208.872	-494.190	-249.672	3.623
3700	66.944	206.535	148.274	215.566	-903.365	-235.090	3.319
3800	66.944	208.321	149.831	222.261	-902.214	-217.044	2.983
3900	66.944	210.060	151.353	228.955	-901.125	-199.027	2.666
4000	66.944	211.754	152.842	235.650	-900.098	-181.038	2.364
4100	66.944	213.407	154.299	242.344	-899.129	-163.074	2.078
4200	66.944	215.021	155.726	249.038	-898.218	-145.133	1.805
4300	66.944	216.596	157.123	255.733	-897.362	-127.212	1.545
4400	66.944	218.135	158.492	262.427	-896.559	-109.311	1.298
4500	66.944	219.639	159.835	269.122	-895.809	-91.428	1.061
